File: KDE_X.csv
A,B,X,Thickness,Bandgap,Voc,Jsc,FF,PCE
-2.88983,-2.90367,-1.12838,-0.10292,1.07321,-0.135081,-3.44527,-0.0653552,-3.89865
-2.8628,-2.88303,-1.10725,-0.0969459,1.08077,-0.123894,-3.25796,-0.039422,-3.73474
-2.83576,-2.86239,-1.08611,-0.0909716,1.08832,-0.112707,-3.07065,-0.0134888,-3.57083
-2.80873,-2.84175,-1.06497,-0.0849972,1.09588,-0.101521,-2.88334,0.0124445,-3.40693
-2.78169,-2.82111,-1.04383,-0.0790229,1.10343,-0.0903339,-2.69603,0.0383777,-3.24302
-2.75466,-2.80047,-1.02269,-0.0730486,1.11099,-0.0791471,-2.50872,0.0643109,-3.07911
-2.72763,-2.77983,-1.00155,-0.0670743,1.11854,-0.0679604,-2.32142,0.0902441,-2.9152
-2.70059,-2.75919,-0.980408,-0.0610999,1.1261,-0.0567736,-2.13411,0.116177,-2.7513
-2.67356,-2.73855,-0.959268,-0.0551256,1.13366,-0.0455869,-1.9468,0.142111,-2.58739
-2.64653,-2.71791,-0.938129,-0.0491513,1.14121,-0.0344002,-1.75949,0.168044,-2.42348
-2.61949,-2.69727,-0.916989,-0.043177,1.14877,-0.0232134,-1.57218,0.193977,-2.25958
-2.59246,-2.67663,-0.89585,-0.0372027,1.15632,-0.0120267,-1.38487,0.21991,-2.09567
-2.56543,-2.65599,-0.87471,-0.0312283,1.16388,-0.000839938,-1.19756,0.245843,-1.93176
-2.53839,-2.63535,-0.853571,-0.025254,1.17143,0.0103468,-1.01025,0.271777,-1.76785
-2.51136,-2.61471,-0.832431,-0.0192797,1.17899,0.0215335,-0.822941,0.29771,-1.60395
-2.48433,-2.59407,-0.811291,-0.0133054,1.18655,0.0327203,-0.635632,0.323643,-1.44004
-2.45729,-2.57343,-0.790152,-0.00733103,1.1941,0.043907,-0.448323,0.349576,-1.27613
-2.43026,-2.55279,-0.769012,-0.00135671,1.20166,0.0550938,-0.261013,0.37551,-1.11223
-2.40323,-2.53215,-0.747873,0.00461761,1.20921,0.0662805,-0.0737041,0.401443,-0.948319
-2.37619,-2.51151,-0.726733,0.0105919,1.21677,0.0774673,0.113605,0.427376,-0.784412
-2.34916,-2.49087,-0.705594,0.0165663,1.22432,0.088654,0.300914,0.453309,-0.620504
-2.32213,-2.47023,-0.684454,0.0225406,1.23188,0.0998407,0.488224,0.479242,-0.456597
-2.29509,-2.44959,-0.663315,0.0285149,1.23943,0.111027,0.675533,0.505176,-0.29269
-2.26806,-2.42895,-0.642175,0.0344892,1.24699,0.122214,0.862842,0.531109,-0.128783
-2.24103,-2.40831,-0.621036,0.0404636,1.25455,0.133401,1.05015,0.557042,0.0351241
-2.21399,-2.38767,-0.599896,0.0464379,1.2621,0.144588,1.23746,0.582975,0.199031
-2.18696,-2.36703,-0.578756,0.0524122,1.26966,0.155774,1.42477,0.608908,0.362938
-2.15993,-2.34639,-0.557617,0.0583865,1.27721,0.166961,1.61208,0.634842,0.526845
-2.13289,-2.32575,-0.536477,0.0643609,1.28477,0.178148,1.79939,0.660775,0.690753
-2.10586,-2.30511,-0.515338,0.0703352,1.29232,0.189335,1.9867,0.686708,0.85466
-2.07883,-2.28447,-0.494198,0.0763095,1.29988,0.200521,2.17401,0.712641,1.01857
-2.05179,-2.26383,-0.473059,0.0822838,1.30744,0.211708,2.36132,0.738575,1.18247
-2.02476,-2.24319,-0.451919,0.0882581,1.31499,0.222895,2.54863,0.764508,1.34638
-1.99772,-2.22255,-0.43078,0.0942325,1.32255,0.234082,2.73593,0.790441,1.51029
-1.97069,-2.20191,-0.40964,0.100207,1.3301,0.245268,2.92324,0.816374,1.6742
-1.94366,-2.18127,-0.388501,0.106181,1.33766,0.256455,3.11055,0.842307,1.8381
-1.91662,-2.16063,-0.367361,0.112155,1.34521,0.267642,3.29786,0.868241,2.00201
-1.88959,-2.13999,-0.346222,0.11813,1.35277,0.278829,3.48517,0.894174,2.16592
-1.86256,-2.11935,-0.325082,0.124104,1.36033,0.290015,3.67248,0.920107,2.32982
-1.83552,-2.09871,-0.303942,0.130078,1.36788,0.301202,3.85979,0.94604,2.49373
-1.80849,-2.07807,-0.282803,0.136053,1.37544,0.312389,4.0471,0.971974,2.65764
-1.78146,-2.05743,-0.261663,0.142027,1.38299,0.323576,4.23441,0.997907,2.82155
-1.75442,-2.03679,-0.240524,0.148001,1.39055,0.334762,4.42172,1.02384,2.98545
-1.72739,-2.01615,-0.219384,0.153976,1.3981,0.345949,4.60903,1.04977,3.14936
-1.70036,-1.99551,-0.198245,0.15995,1.40566,0.357136,4.79634,1.07571,3.31327
-1.67332,-1.97487,-0.177105,0.165924,1.41322,0.368323,4.98365,1.10164,3.47717
-1.64629,-1.95423,-0.155966,0.171899,1.42077,0.379509,5.17095,1.12757,3.64108
-1.61926,-1.93359,-0.134826,0.177873,1.42833,0.390696,5.35826,1.15351,3.80499
-1.59222,-1.91295,-0.113687,0.183847,1.43588,0.401883,5.54557,1.17944,3.9689
-1.56519,-1.89231,-0.092547,0.189822,1.44344,0.41307,5.73288,1.20537,4.1328
-1.53816,-1.87167,-0.0714074,0.195796,1.45099,0.424256,5.92019,1.23131,4.29671
-1.51112,-1.85103,-0.0502679,0.20177,1.45855,0.435443,6.1075,1.25724,4.46062
-1.48409,-1.83039,-0.0291283,0.207745,1.46611,0.44663,6.29481,1.28317,4.62452
-1.45706,-1.80975,-0.0079888,0.213719,1.47366,0.457816,6.48212,1.30911,4.78843
-1.43002,-1.78911,0.0131507,0.219693,1.48122,0.469003,6.66943,1.33504,4.95234
-1.40299,-1.76847,0.0342903,0.225668,1.48877,0.48019,6.85674,1.36097,5.11625
-1.37596,-1.74783,0.0554298,0.231642,1.49633,0.491377,7.04405,1.38691,5.28015
-1.34892,-1.72719,0.0765694,0.237616,1.50388,0.502563,7.23136,1.41284,5.44406
-1.32189,-1.70655,0.0977089,0.243591,1.51144,0.51375,7.41867,1.43877,5.60797
-1.29485,-1.68591,0.118848,0.249565,1.519,0.524937,7.60598,1.4647,5.77187
-1.26782,-1.66527,0.139988,0.255539,1.52655,0.536124,7.79328,1.49064,5.93578
-1.24079,-1.64463,0.161128,0.261514,1.53411,0.54731,7.98059,1.51657,6.09969
-1.21375,-1.62399,0.182267,0.267488,1.54166,0.558497,8.1679,1.5425,6.2636
-1.18672,-1.60335,0.203407,0.273462,1.54922,0.569684,8.35521,1.56844,6.4275
-1.15969,-1.58271,0.224546,0.279437,1.55677,0.580871,8.54252,1.59437,6.59141
-1.13265,-1.56208,0.245686,0.285411,1.56433,0.592057,8.72983,1.6203,6.75532
-1.10562,-1.54144,0.266825,0.291385,1.57188,0.603244,8.91714,1.64624,6.91922
-1.07859,-1.5208,0.287965,0.297359,1.57944,0.614431,9.10445,1.67217,7.08313
-1.05155,-1.50016,0.309104,0.303334,1.587,0.625618,9.29176,1.6981,7.24704
-1.02452,-1.47952,0.330244,0.309308,1.59455,0.636804,9.47907,1.72404,7.41095
-0.997487,-1.45888,0.351383,0.315282,1.60211,0.647991,9.66638,1.74997,7.57485
-0.970453,-1.43824,0.372523,0.321257,1.60966,0.659178,9.85369,1.7759,7.73876
-0.94342,-1.4176,0.393663,0.327231,1.61722,0.670365,10.041,1.80184,7.90267
-0.916387,-1.39696,0.414802,0.333205,1.62477,0.681551,10.2283,1.82777,8.06657
-0.889353,-1.37632,0.435942,0.33918,1.63233,0.692738,10.4156,1.8537,8.23048
-0.86232,-1.35568,0.457081,0.345154,1.63989,0.703925,10.6029,1.87964,8.39439
-0.835286,-1.33504,0.478221,0.351128,1.64744,0.715112,10.7902,1.90557,8.55829
-0.808253,-1.3144,0.49936,0.357103,1.655,0.726298,10.9775,1.9315,8.7222
-0.781219,-1.29376,0.5205,0.363077,1.66255,0.737485,11.1649,1.95744,8.88611
-0.754186,-1.27312,0.541639,0.369051,1.67011,0.748672,11.3522,1.98337,9.05002
-0.727152,-1.25248,0.562779,0.375026,1.67766,0.759859,11.5395,2.0093,9.21392
-0.700119,-1.23184,0.583918,0.381,1.68522,0.771045,11.7268,2.03524,9.37783
-0.673085,-1.2112,0.605058,0.386974,1.69278,0.782232,11.9141,2.06117,9.54174
-0.646052,-1.19056,0.626198,0.392949,1.70033,0.793419,12.1014,2.0871,9.70564
-0.619019,-1.16992,0.647337,0.398923,1.70789,0.804605,12.2887,2.11304,9.86955
-0.591985,-1.14928,0.668477,0.404897,1.71544,0.815792,12.476,2.13897,10.0335
-0.564952,-1.12864,0.689616,0.410872,1.723,0.826979,12.6633,2.1649,10.1974
-0.537918,-1.108,0.710756,0.416846,1.73055,0.838166,12.8506,2.19083,10.3613
-0.510885,-1.08736,0.731895,0.42282,1.73811,0.849352,13.0379,2.21677,10.5252
-0.483851,-1.06672,0.753035,0.428795,1.74567,0.860539,13.2253,2.2427,10.6891
-0.456818,-1.04608,0.774174,0.434769,1.75322,0.871726,13.4126,2.26863,10.853
-0.429784,-1.02544,0.795314,0.440743,1.76078,0.882913,13.5999,2.29457,11.0169
-0.402751,-1.0048,0.816453,0.446718,1.76833,0.894099,13.7872,2.3205,11.1808
-0.375717,-0.984159,0.837593,0.452692,1.77589,0.905286,13.9745,2.34643,11.3447
-0.348684,-0.963519,0.858733,0.458666,1.78344,0.916473,14.1618,2.37237,11.5086
-0.321651,-0.942879,0.879872,0.464641,1.791,0.92766,14.3491,2.3983,11.6725
-0.294617,-0.92224,0.901012,0.470615,1.79856,0.938846,14.5364,2.42423,11.8364
-0.267584,-0.9016,0.922151,0.476589,1.80611,0.950033,14.7237,2.45017,12.0003
-0.24055,-0.88096,0.943291,0.482564,1.81367,0.96122,14.911,2.4761,12.1643
-0.213517,-0.86032,0.96443,0.488538,1.82122,0.972407,15.0983,2.50203,12.3282
-0.186483,-0.83968,0.98557,0.494512,1.82878,0.983593,15.2857,2.52797,12.4921
-0.15945,-0.81904,1.00671,0.500486,1.83633,0.99478,15.473,2.5539,12.656
-0.132416,-0.7984,1.02785,0.506461,1.84389,1.00597,15.6603,2.57983,12.8199
-0.105383,-0.77776,1.04899,0.512435,1.85144,1.01715,15.8476,2.60577,12.9838
-0.0783495,-0.757121,1.07013,0.518409,1.859,1.02834,16.0349,2.6317,13.1477
-0.051316,-0.736481,1.09127,0.524384,1.86656,1.03953,16.2222,2.65763,13.3116
-0.0242825,-0.715841,1.11241,0.530358,1.87411,1.05071,16.4095,2.68357,13.4755
0.00275091,-0.695201,1.13355,0.536332,1.88167,1.0619,16.5968,2.7095,13.6394
0.0297844,-0.674561,1.15469,0.542307,1.88922,1.07309,16.7841,2.73543,13.8033
0.0568178,-0.653921,1.17583,0.548281,1.89678,1.08427,16.9714,2.76137,13.9672
0.0838513,-0.633281,1.19697,0.554255,1.90433,1.09546,17.1587,2.7873,14.1311
0.110885,-0.612642,1.2181,0.56023,1.91189,1.10665,17.3461,2.81323,14.295
0.137918,-0.592002,1.23924,0.566204,1.91945,1.11783,17.5334,2.83917,14.459
0.164952,-0.571362,1.26038,0.572178,1.927,1.12902,17.7207,2.8651,14.6229
0.191985,-0.550722,1.28152,0.578153,1.93456,1.14021,17.908,2.89103,14.7868
0.219019,-0.530082,1.30266,0.584127,1.94211,1.15139,18.0953,2.91696,14.9507
0.246052,-0.509442,1.3238,0.590101,1.94967,1.16258,18.2826,2.9429,15.1146
0.273085,-0.488802,1.34494,0.596076,1.95722,1.17377,18.4699,2.96883,15.2785
0.300119,-0.468163,1.36608,0.60205,1.96478,1.18495,18.6572,2.99476,15.4424
0.327152,-0.447523,1.38722,0.608024,1.97234,1.19614,18.8445,3.0207,15.6063
0.354186,-0.426883,1.40836,0.613999,1.97989,1.20733,19.0318,3.04663,15.7702
0.381219,-0.406243,1.4295,0.619973,1.98745,1.21851,19.2191,3.07256,15.9341
0.408253,-0.385603,1.45064,0.625947,1.995,1.2297,19.4065,3.0985,16.098
0.435286,-0.364963,1.47178,0.631922,2.00256,1.24089,19.5938,3.12443,16.2619
0.46232,-0.344323,1.49292,0.637896,2.01011,1.25208,19.7811,3.15036,16.4258
0.489353,-0.323684,1.51406,0.64387,2.01767,1.26326,19.9684,3.1763,16.5897
0.516387,-0.303044,1.5352,0.649845,2.02523,1.27445,20.1557,3.20223,16.7537
0.54342,-0.282404,1.55634,0.655819,2.03278,1.28564,20.343,3.22816,16.9176
0.570453,-0.261764,1.57748,0.661793,2.04034,1.29682,20.5303,3.2541,17.0815
0.597487,-0.241124,1.59862,0.667768,2.04789,1.30801,20.7176,3.28003,17.2454
0.62452,-0.220484,1.61976,0.673742,2.05545,1.3192,20.9049,3.30596,17.4093
0.651554,-0.199844,1.6409,0.679716,2.063,1.33038,21.0922,3.3319,17.5732
0.678587,-0.179205,1.66204,0.685691,2.07056,1.34157,21.2796,3.35783,17.7371
0.705621,-0.158565,1.68317,0.691665,2.07812,1.35276,21.4669,3.38376,17.901
0.732654,-0.137925,1.70431,0.697639,2.08567,1.36394,21.6542,3.4097,18.0649
0.759688,-0.117285,1.72545,0.703613,2.09323,1.37513,21.8415,3.43563,18.2288
0.786721,-0.0966452,1.74659,0.709588,2.10078,1.38632,22.0288,3.46156,18.3927
0.813755,-0.0760054,1.76773,0.715562,2.10834,1.3975,22.2161,3.4875,18.5566
0.840788,-0.0553655,1.78887,0.721536,2.11589,1.40869,22.4034,3.51343,18.7205
0.867821,-0.0347256,1.81001,0.727511,2.12345,1.41988,22.5907,3.53936,18.8844
0.894855,-0.0140858,1.83115,0.733485,2.131,1.43106,22.778,3.5653,19.0484
0.921888,0.00655408,1.85229,0.739459,2.13856,1.44225,22.9653,3.59123,19.2123
0.948922,0.0271939,1.87343,0.745434,2.14612,1.45344,23.1526,3.61716,19.3762
0.975955,0.0478338,1.89457,0.751408,2.15367,1.46462,23.34,3.64309,19.5401
1.00299,0.0684736,1.91571,0.757382,2.16123,1.47581,23.5273,3.66903,19.704
1.03002,0.0891135,1.93685,0.763357,2.16878,1.487,23.7146,3.69496,19.8679
1.05706,0.109753,1.95799,0.769331,2.17634,1.49818,23.9019,3.72089,20.0318
1.08409,0.130393,1.97913,0.775305,2.18389,1.50937,24.0892,3.74683,20.1957
1.11112,0.151033,2.00027,0.78128,2.19145,1.52056,24.2765,3.77276,20.3596
1.13816,0.171673,2.02141,0.787254,2.19901,1.53174,24.4638,3.79869,20.5235
1.16519,0.192313,2.04255,0.793228,2.20656,1.54293,24.6511,3.82463,20.6874
1.19222,0.212953,2.06369,0.799203,2.21412,1.55412,24.8384,3.85056,20.8513
1.21926,0.233593,2.08483,0.805177,2.22167,1.5653,25.0257,3.87649,21.0152
1.24629,0.254232,2.10597,0.811151,2.22923,1.57649,25.213,3.90243,21.1791
1.27332,0.274872,2.12711,0.817126,2.23678,1.58768,25.4004,3.92836,21.3431
1.30036,0.295512,2.14824,0.8231,2.24434,1.59886,25.5877,3.95429,21.507
1.32739,0.316152,2.16938,0.829074,2.2519,1.61005,25.775,3.98023,21.6709
1.35442,0.336792,2.19052,0.835049,2.25945,1.62124,25.9623,4.00616,21.8348
1.38146,0.357432,2.21166,0.841023,2.26701,1.63242,26.1496,4.03209,21.9987
1.40849,0.378072,2.2328,0.846997,2.27456,1.64361,26.3369,4.05803,22.1626
1.43552,0.398711,2.25394,0.852972,2.28212,1.6548,26.5242,4.08396,22.3265
1.46256,0.419351,2.27508,0.858946,2.28967,1.66598,26.7115,4.10989,22.4904
1.48959,0.439991,2.29622,0.86492,2.29723,1.67717,26.8988,4.13583,22.6543
1.51662,0.460631,2.31736,0.870895,2.30479,1.68836,27.0861,4.16176,22.8182
1.54366,0.481271,2.3385,0.876869,2.31234,1.69954,27.2734,4.18769,22.9821
1.57069,0.501911,2.35964,0.882843,2.3199,1.71073,27.4608,4.21363,23.146
1.59772,0.522551,2.38078,0.888818,2.32745,1.72192,27.6481,4.23956,23.3099
1.62476,0.54319,2.40192,0.894792,2.33501,1.73311,27.8354,4.26549,23.4738
1.65179,0.56383,2.42306,0.900766,2.34256,1.74429,28.0227,4.29143,23.6378
1.67883,0.58447,2.4442,0.906741,2.35012,1.75548,28.21,4.31736,23.8017
1.70586,0.60511,2.46534,0.912715,2.35768,1.76667,28.3973,4.34329,23.9656
1.73289,0.62575,2.48648,0.918689,2.36523,1.77785,28.5846,4.36923,24.1295
1.75993,0.64639,2.50762,0.924663,2.37279,1.78904,28.7719,4.39516,24.2934
1.78696,0.66703,2.52876,0.930638,2.38034,1.80023,28.9592,4.42109,24.4573
1.81399,0.687669,2.5499,0.936612,2.3879,1.81141,29.1465,4.44702,24.6212
1.84103,0.708309,2.57104,0.942586,2.39545,1.8226,29.3338,4.47296,24.7851
1.86806,0.728949,2.59218,0.948561,2.40301,1.83379,29.5212,4.49889,24.949
1.89509,0.749589,2.61331,0.954535,2.41057,1.84497,29.7085,4.52482,25.1129
1.92213,0.770229,2.63445,0.960509,2.41812,1.85616,29.8958,4.55076,25.2768
1.94916,0.790869,2.65559,0.966484,2.42568,1.86735,30.0831,4.57669,25.4407
1.97619,0.811509,2.67673,0.972458,2.43323,1.87853,30.2704,4.60262,25.6046
2.00323,0.832148,2.69787,0.978432,2.44079,1.88972,30.4577,4.62856,25.7685
2.03026,0.852788,2.71901,0.984407,2.44834,1.90091,30.645,4.65449,25.9325
2.05729,0.873428,2.74015,0.990381,2.4559,1.91209,30.8323,4.68042,26.0964
2.08433,0.894068,2.76129,0.996355,2.46345,1.92328,31.0196,4.70636,26.2603
2.11136,0.914708,2.78243,1.00233,2.47101,1.93447,31.2069,4.73229,26.4242
2.13839,0.935348,2.80357,1.0083,2.47857,1.94565,31.3943,4.75822,26.5881
2.16543,0.955988,2.82471,1.01428,2.48612,1.95684,31.5816,4.78416,26.752
2.19246,0.976627,2.84585,1.02025,2.49368,1.96803,31.7689,4.81009,26.9159
2.21949,0.997267,2.86699,1.02623,2.50123,1.97921,31.9562,4.83602,27.0798
2.24653,1.01791,2.88813,1.0322,2.50879,1.9904,32.1435,4.86196,27.2437
2.27356,1.03855,2.90927,1.03818,2.51634,2.00159,32.3308,4.88789,27.4076
2.30059,1.05919,2.93041,1.04415,2.5239,2.01277,32.5181,4.91382,27.5715
2.32763,1.07983,2.95155,1.05012,2.53146,2.02396,32.7054,4.93976,27.7354
2.35466,1.10047,2.97269,1.0561,2.53901,2.03515,32.8927,4.96569,27.8993
2.38169,1.12111,2.99383,1.06207,2.54657,2.04633,33.08,4.99162,28.0632
2.40873,1.14175,3.01497,1.06805,2.55412,2.05752,33.2673,5.01756,28.2272
2.43576,1.16239,3.03611,1.07402,2.56168,2.06871,33.4547,5.04349,28.3911
2.4628,1.18303,3.05725,1.08,2.56923,2.07989,33.642,5.06942,28.555
2.48983,1.20367,3.07838,1.08597,2.57679,2.09108,33.8293,5.09536,28.7189